File: hauke_function /data_xrd.txt
   0.53   6   8   10   10310  -6
   0.93   5   5   8   8820  -5
   1.17   5   5   5   5370  -5
   1.55   5   1   0.0000000e+00   3290  -5
   1.77   8   1   0.0000000e+00   3080  -8
   2.17   10   1   0.0000000e+00   3100  -10
   2.398   8   2   0.0000000e+00   2930  -8
   2.41   7   4   0.0000000e+00   3080  -7
   2.478   7   4   1   3320  -7
   2.718   8   2   0.0000000e+00   3060  -8
   2.931   1   2   8   8240  -1
   2.951   2   3   5   5510  -2
   3.046   4   3   7   6810  -4
   3.286   1   8   8   7560  -1
   3.686   1   5   7   6830  -1
   3.921   1   3   7   6740  -1
   4.171   5   6   7   6960  -5
   4.314   4   8   10   10290  -4
   4.568   4   6   8   8430  -4
   4.808   4   4   8   7910  -4
   5.208   1   2   7   6910  -1
   5.444   1   5   11   11040  -1
   5.844   2   7   11   10840  -2
   6.084   1   5   10   10450  -1
   6.359   5   5   9   9030  -5
   6.599   4   5   9   9150  -4
   6.999   3   4   10   10020  -3
   7.239   3   5   10   9580  -3
   7.629   3   5   9   9370  -3
   7.852   0.0000000e+00   7   9   8770   0.0000000e+00
   8.252   2   4   8   7960  -2
   8.472   2   3   10   9500  -2
   8.872   4   4   10   10200  -4
   9.112   4   4   9   9250  -4
   9.74   3   5   9   9090  -3
   10.14   3   5   9   9410  -3
   10.405   4   10   6   6070  -4
   10.795   5   7   8   8710  -5
   11.035   6   10   8   7870  -6
   11.425   6   8   10   10380  -6
   11.665   2   5   10   9740  -2
   12.065   4   4   12   12250  -4
   12.697   3   4   8   8790  -3
   12.937   2   4   8   8360  -2
   13.337   5   6   12   12470  -5
   13.577   3   3   11   11540  -3
   13.977   4   4   11   11240  -4
   14.613   6   8   12   11750  -6
   17.931   2   4   10   9640  -2
   18.14   4   5   10   10430  -4
   18.22   4   6   11   11300  -4
   18.331   1   5   10   9870  -1
   18.571   3   6   8   8170  -3
   18.971   6   7   9   9040  -6
   19.208   7   6   10   9830  -7
   19.608   3   4   9   8660  -3
   19.848   6   3   10   9630  -6
   20.248   7   5   7   6800  -7
   20.488   4   3   7   6920  -4
   21.241   2   4   6   6810  -2
   21.561   1   4   5   5130  -1
   21.801   1   3   5   5450  -1
   22.201   3   6   7   6800  -3
   22.848   2   4   7   7280  -2
   23.088   7   8   4   4300  -7
   23.488   5   5   4   4250  -5
   23.833   2   8   6   5610  -2
   24.233   4   6   6   6380  -4
   24.473   4   7   6   7340  -4
   24.873   2   7   9   8880  -2
   25.113   1   9   9   9270  -1
   25.518   3   6   9   8690  -3
   25.758   5   5   10   10490  -5
   26.156   5   7   11   11330  -5
   26.396   5   6   12   11570  -5
   26.886   8   5   7   7010  -8
   27.126   5   7   8   7980  -5
   27.526   4   5   7   7060  -4
   27.766   2   3   6   6300  -2
   28.159   2   5   8   7500  -2
   28.399   2   4   6   6230  -2
   28.799   3   3   6   6100  -3
   29.039   1   5   7   6780  -1
   29.398   2   3   6   6976  -2
   29.796   5   4   8   8490  -5
   30.163   10   8   3   3510  -10
   30.403   9   8   0.0000000e+00   3300  -9
   30.803   9   10   0.0000000e+00   3000  -9
   31.043   10   7   0.0000000e+00   3000  -10
   31.443   10   9   0.0000000e+00   3360  -10
   31.693   5   5   0.0000000e+00   2690  -5
   32.093   9   1   0.0000000e+00   3420  -9
   32.333   5   2   9   9060  -5
   32.729   4   8   8   8180  -4
   33.814   6   6   7   6950  -6
   34.054   4   7   6   6180  -4
   34.454   5   7   8   7610  -5
   34.694   4   6   8   7690  -4
   35.066   5   10   9   9020  -5
   35.306   6   6   8   8000  -6
   35.706   7   6   8   7780  -7
   35.927   7   7   8   7990  -7
   36.327   5   5   10   1049  -5
   36.567   8   4   11   11330  -8
   36.904   2   3   14   14130  -2
   37.434   6   5   14   18450  -6
   37.834   10   9   14   19000  -10
   38.074   6   8   14   15510  -6
   38.474   6   6   7   6660  -6
   38.726   4   6   8   8124  -4
   39.126   7   5   7   7540  -7
   39.367   7   6   7   7437  -7
   39.767   6   6   7   7540  -6
   40.007   5   5   8   7781  -5
   40.433   10   7   0.0000000e+00   3140  -10
   40.673   9   6   0.0000000e+00   3210  -9
   41.074   10   6   0.0000000e+00   3680  -10
   41.329   8   8   0.0000000e+00   3310  -8
   41.729   10   6   0.0000000e+00   3860  -10
   41.979   8   7   0.0000000e+00   3110  -8
   46.919   7   4   0.0000000e+00   2810  -7
   47.399   8   2   3   3180  -8
   49.364   3   4   3   3720  -3
   49.604   3   4   5   5090  -3
   49.79   2   3   5   4550  -2
   50.332   1   2   4   4120  -1
   50.572   2   3   4   3830  -2
   50.967   1   2   4   3630  -1
   51.207   1   1   3   3310  -1
   51.847   1   1   4   3660  -1
   52.211   7   2   4   3660  -7
   53.955   4   9   0.0000000e+00   3180  -4
   54.965   7   8   0.0000000e+00   2910  -7
   57.885   7   10   0.0000000e+00   2880  -7
   60.725   8   1   0.0000000e+00   3280  -8
   60.965   5   2   0.0000000e+00   3310  -5
   61.355   7   1   0.0000000e+00   3410  -7
   61.595   8   2   0.0000000e+00   3380  -8
   61.995   6   2   0.0000000e+00   3380  -6
   62.245   4   4   0.0000000e+00   3210  -4
   62.655   7   7   0.0000000e+00   3280  -7
   62.895   7   7   0.0000000e+00   3150  -7
   63.295   8   7   0.0000000e+00   3150  -8
   63.375   10   5   0.0000000e+00   3480  -10
   63.947   5   7   0.0000000e+00   3820  -5
   64.347   8   10   0.0000000e+00   3250  -8
   64.587   9   10   0.0000000e+00   3630  -9
   64.827   10   10   0.0000000e+00   3320  -10
   66.957   9   4   0.0000000e+00   3450  -9
   67.357   7   7   0.0000000e+00   3410  -7
   67.757   8   7   0.0000000e+00   3410  -8
   67.997   10   3   0.0000000e+00   3320  -10
   68.237   9   2   0.0000000e+00   3410  -9
   68.27   10   4   0.0000000e+00   3445  -10
   68.51   8   6   0.0000000e+00   3510  -8
   68.915   6   6   0.0000000e+00   3540  -6
   69.155   9   7   0.0000000e+00   3410  -9
   69.555   3   3   0.0000000e+00   3700  -3
   69.795   6   5   0.0000000e+00   3330  -6
   70.195   6   5   0.0000000e+00   3010  -6
   70.435   5   5   0.0000000e+00   3330  -5
   70.982   4   2   3   2900  -4
   71.246   6   5   0.0000000e+00   3480  -6
   71.296   4   6   1   3071  -4
   71.646   4   3   0.0000000e+00   2710  -4
   71.809   7   7   6   5760  -7
   71.886   3   3   0.0000000e+00   2730  -3
   72.209   7   9   6   6130  -7
   72.449   8   8   5   5250  -8
   72.849   5   6   2   3680  -5
   73.099   9   10   2   3225  -9
   73.56   3   3   0.0000000e+00   2830  -3
   73.8   4   4   0.0000000e+00   2848  -4
   74.04   5   5   0.0000000e+00   2950  -5
   74.435   3   4   0.0000000e+00   2683  -3
   74.675   4   6   3   3611  -4
   75.075   8   10   7   7490  -8
   75.485   5   6   7   6650  -5
   75.725   6   7   7   7450  -6
   76.045   7   7   8   8040  -7
   76.36   4   6   7   6600  -4
   76.6   8   6   3   3351  -8
   77   9   7   3   3260  -9
   77.53   10   7   0.0000000e+00   3151  -10
   77.77   9   7   0.0000000e+00   3448  -9
   78.01   9   6   0.0000000e+00   3366  -9
   80.2   10   8   0.0000000e+00   3217  -10
   80.44   10   8   0.0000000e+00   3300  -10
   80.73   10   5   3   3151  -10
   81.05   7   6   0.0000000e+00   3070  -7
   81.37   10   2   0.0000000e+00   3150  -10
   81.69   8   3   0.0000000e+00   2990  -8
   81.95   9   2   0.0000000e+00   2910  -9
   82.32   7   4   0.0000000e+00   3070  -7
   82.635   4   3   0.0000000e+00   2580  -4
   82.96   8   7   0.0000000e+00   3150  -8
   83.28   6   2   0.0000000e+00   2990  -6
   83.6   10   8   0.0000000e+00   3320  -10
   83.92   7   9   0.0000000e+00   2990  -7
   84.24   6   10   6   5690  -6
   84.56   5   8   0.0000000e+00   2910  -5
   84.88   8   3   0.0000000e+00   2830  -8
   85.2   9   3   0.0000000e+00   2910  -9
   85.52   6   4   0.0000000e+00   2910  -6
   85.84   6   5   0.0000000e+00   2910  -6
   86.16   4   3   0.0000000e+00   2830  -4
   86.48   8   2   0.0000000e+00   2830  -8
   86.8   6   7   0.0000000e+00   2830  -6
   87.869   5   3   6   6070  -5
   88.189   4   2   5   5360  -4
   88.509   2   2   1   2730  -2
   88.829   5   4   3   3860  -5
   89.15   6   2   0.0000000e+00   2820  -6
   89.47   5   3   0.0000000e+00   2630  -5
   89.79   5   3   0.0000000e+00   2630  -5
   90.11   4   4   0.0000000e+00   3020  -4
   90.869   4   4   0.0000000e+00   3200  -4
   91.189   5   4   0.0000000e+00   3200  -5
   91.509   5   5   0.0000000e+00   3200  -5
   91.829   7   3   0.0000000e+00   3290  -7
   92.148   7   1   0.0000000e+00   3010  -7
   92.468   7   2   0.0000000e+00   3100  -7
   92.788   8   1   0.0000000e+00   3100  -8
   93.108   7   5   0.0000000e+00   2630  -7
   94.616   7   1   0.0000000e+00   3040  -7
   94.938   5   1   0.0000000e+00   3040  -5
   95.258   7   0.0000000e+00   0.0000000e+00   2400  -7
   95.491   7   1   0.0000000e+00   2540  -7
   95.61   7   1   0.0000000e+00   3500  -7
   95.79   9   2   0.0000000e+00   3320  -9
   95.811   7   2   0.0000000e+00   3290  -7
   96.131   7   4   0.0000000e+00   3100  -7
   96.451   8   2   0.0000000e+00   3100  -8
   96.771   8   5   0.0000000e+00   3100  -8
   97.091   9   6   0.0000000e+00   3100  -9
   97.411   7   2   0.0000000e+00   3020  -7
   97.731   9   1   0.0000000e+00   3200  -9
   97.971   8   1   0.0000000e+00   3200  -8
   98.251   9   0.0000000e+00   0.0000000e+00   3200  -9
   98.571   8   4   0.0000000e+00   3200  -8
   98.891   8   5   0.0000000e+00   3200  -8
   99.204   9   3   0.0000000e+00   3200  -9
   99.524   10   6   0.0000000e+00   3390  -10
   99.844   10   4   0.0000000e+00   2630  -10
   100.166   9   3   0.0000000e+00   3010  -9
   100.486   7   6   0.0000000e+00   3200  -7
   101.089   7   0.0000000e+00   0.0000000e+00   2950  -7
   101.409   8   1   0.0000000e+00   3150  -8
   101.729   7   4   0.0000000e+00   2950  -7
   103.949   6   2   0.0000000e+00   2420  -6
   104.269   5   6   0.0000000e+00   2500  -5
   104.589   6   6   0.0000000e+00   2990  -6
   104.909   5   5   0.0000000e+00   2600  -5
   105.229   5   5   0.0000000e+00   2600  -5
   105.554   6   3   0.0000000e+00   2600  -6
   105.874   5   4   0.0000000e+00   2500  -5
   106.194   5   5   0.0000000e+00   2500  -5
   106.514   6   5   0.0000000e+00   2500  -6
   107.079   6   3   0.0000000e+00   2500  -6
   107.399   6   4   0.0000000e+00   3000  -6
   107.719   6   1   0.0000000e+00   3010  -6
   108.039   8   3   0.0000000e+00   3240  -8
   108.699   7   2   0.0000000e+00   3100  -7
   108.764   7   2   0.0000000e+00   3200  -7
   108.939   6   5   0.0000000e+00   3100  -6
   109.044   5   5   0.0000000e+00   3010  -5
   109.397   6   5   0.0000000e+00   3010  -6
   109.717   6   4   0.0000000e+00   3010  -6
   110.037   7   6   0.0000000e+00   3010  -7
   110.36   7   6   0.0000000e+00   3010  -7
   110.68   7   6   0.0000000e+00   3010  -7
   111   6   6   0.0000000e+00   3010  -6
   111.775   6   7   1   3600  -6
   112.095   5   6   1   3500  -5
   112.415   7   6   0.0000000e+00   3000  -7
   112.585   7   5   0.0000000e+00   3200  -7
   113.58   8   4   0.0000000e+00   3210  -8
   113.9   9   4   0.0000000e+00   3210  -9
   113.95   7   2   0.0000000e+00   3270  -7
   114.22   8   2   2   2870  -8
   114.27   7   1   0.0000000e+00   3060  -7
   114.45   8   8   0.0000000e+00   3630  -8
   114.59   7   1   0.0000000e+00   3020  -7
   114.6   7   6   0.0000000e+00   3120  -7
   114.91   5   2   0.0000000e+00   2860  -5
   115.23   7   2   0.0000000e+00   3020  -7
   115.55   8   2   0.0000000e+00   3470  -8
   115.87   3   3   0.0000000e+00   2550  -3
   116.19   5   4   5   5120  -5
   116.51   4   5   5   5420  -4
   116.83   4   5   4   4440  -4
   117.15   4   6   3   3620  -4
   117.465   5   4   4   4140  -5
   117.786   3   5   5   5270  -3
   117.924   5   4   5   5270  -5
   117.934   5   6   5   5240  -5
   118.254   5   6   6   5570  -5
   118.574   5   5   5   5070  -5
   118.894   5   4   5   5240  -5
   119.219   5   4   5   5490  -5
   119.624   4   6   5   5320  -4
   119.66   3   4   4   4620  -3
   119.972   4   5   4   4820  -4
   120.292   3   4   5   5110  -3
   120.612   3   4   4   4320  -3
   120.93   3   3   4   4720  -3
   121.07   3   3   3   3540  -3
   121.729   2   3   4   4670  -2
   121.989   3   3   4   4320  -3
   122.309   5   5   4   4690  -5
   122.629   5   4   4   4470  -5
   123.039   7   6   3   3910  -7
   123.26   7   5   2   3500  -7
   123.58   7   5   3   3820  -7
   123.9   7   3   3   4030  -7
   124.22   9   2   1   3500  -9
   124.55   8   3   0.0000000e+00   3070  -8
   124.87   9   3   0.0000000e+00   3170  -9
   125.19   9   1   0.0000000e+00   3170  -9
   125.51   9   1   0.0000000e+00   3170  -9
   125.83   9   8   0.0000000e+00   3170  -9
   126.147   9   8   0.0000000e+00   3170  -9
   126.467   9   8   0.0000000e+00   3170  -9
   126.572   8   7   0.0000000e+00   3070  -8
   127.098   6   7   1   3710  -6
   127.423   4   5   1   3600  -4
   127.808   6   1   0.0000000e+00   2610  -6
   128.128   7   2   0.0000000e+00   2910  -7
   128.453   8   1   1   3010  -8
   128.773   6   2   3   3990  -6
   129.093   7   3   3   3990  -7
   129.413   8   3   4   4490  -8
   129.733   6   5   5   5080  -6
   130.048   6   5   5   5770  -6
   130.368   4   6   6   6660  -4
   130.688   1   7   4   4490  -1
   131.008   0.0000000e+00   8   6   6760   0.0000000e+00
   131.328   1   8   6   6710  -1
   131.653   1   7   6   6640  -1
   131.973   5   7   6   6850  -5
   132.293   1   7   5   5760  -1
   132.613   2   8   6   6640  -2
   133.054   1   8   6   6640  -1
   133.344   6   5   7   7770  -6
   133.786   7   7   6   6580  -7
   134.186   6   6   7   7170  -6
   134.506   1   9   8   8880  -1
   134.626   1   9   8   8340  -1
   134.966   1   10   8   8410  -1
   135.286   1   10   9   9420  -1
   135.537   1   10   9   9050  -1
   135.857   4   9   5   5720  -4
   136.177   5   8   6   6150  -5
   136.497   7   7   7   7260  -7
   136.817   7   6   7   7690  -7
   137.137   5   8   6   6230  -5
   137.457   3   8   5   5070  -3
   137.777   5   7   6   6320  -5
   138.097   5   6   6   6080  -5
   138.357   7   8   6   6660  -7
   138.677   6   7   7   7820  -6
   138.997   6   7   4   4700  -6
   139.317   6   8   8   8050  -6
   139.637   4   8   6   6290  -4
   139.957   7   7   7   7300  -7
   140.277   1   9   4   4970  -1
   140.625   1   7   4   4990  -1
   140.94   4   5   5   5110  -4
   141.26   4   6   5   5890  -4
   141.58   5   5   6   6030  -5
   141.9   8   5   8   8700  -8
   142.216   9   4   9   9940  -9
   142.526   9   3   7   7500  -9
   142.846   5   4   3   3660  -5
   143.478   8   6   6   6200  -8
   143.798   8   3   6   6830  -8
   144.118   9   5   5   5400  -9
   145.446   7   10   5   5870  -7
   145.766   9   3   8   8420  -9
   146.086   8   3   9   9690  -8
   146.406   7   6   9   9060  -7
   146.726   10   4   5   5930  -10
   147.016   9   6   7   7950  -9
   147.356   9   5   6   6060  -9
   147.676   9   5   3   3960  -9
   147.996   8   4   3   3670  -8
   148.316   6   4   0.0000000e+00   2510  -6
   148.636   10   1   0.0000000e+00   3090  -10
   149.276   9   1   0.0000000e+00   2940  -9
   149.596   9   1   0.0000000e+00   3240  -9
   149.916   9   1   0.0000000e+00   3180  -9
   150.228   9   1   0.0000000e+00   3240  -9
   150.548   5   3   0.0000000e+00   2150  -5
   150.868   6   6   0.0000000e+00   2860  -6
   151.188   1   6   4   4650  -1
   151.488   1   7   5   5320  -1
   151.688   1   7   5   5120  -1
   152.008   1   6   5   5760  -1
   152.328   2   6   6   6550  -2
   152.648   3   5   6   6790  -3
   152.968   4   4   7   7160  -4
   153.1   2   5   7   7960  -2
   153.42   5   5   7   7740  -5
   153.74   5   5   8   8220  -5
   154.06   5   5   7   7610  -5
   154.38   6   5   7   7260  -6
   154.52   7   6   7   7930  -7
   154.627   7   7   5   5050  -7
   154.947   8   8   4   4240  -8
   155.276   10   4   3   3890  -10
   156.152   6   7   4   4470  -6
   156.882   8   3   3   3260  -8
   157.202   9   3   0.0000000e+00   3340  -9
   157.522   8   2   0.0000000e+00   3110  -8
   157.842   9   3   0.0000000e+00   3170  -9
   158.636   9   2   0.0000000e+00   3390  -9
   158.949   8   1   0.0000000e+00   2950  -8
   159.269   10   1   0.0000000e+00   3080  -10
   159.589   9   2   0.0000000e+00   3190  -9
   159.91   7   4   1   3410  -7
   160.239   8   3   0.0000000e+00   3080  -8
   161.466   9   1   0.0000000e+00   3310  -9
   161.786   9   1   0.0000000e+00   3310  -9
   162.106   7   6   0.0000000e+00   3310  -7
   162.42   1   7   2   3230  -1
   162.74   4   6   3   3590  -4
   163.06   5   5   1   3050  -5
   163.38   6   5   1   3160  -6
   163.695   9   2   1   3300  -9
   164.015   9   2   0.0000000e+00   3260  -9
   164.335   6   4   1   2940  -6
   164.655   9   0.0000000e+00   1   3320  -9
   165.481   10   0.0000000e+00   0.0000000e+00   3060  -10
   165.81   8   1   0.0000000e+00   3010  -8
   166.13   8   2   0.0000000e+00   3050  -8
   166.45   10   0.0000000e+00   0.0000000e+00   3040  -10
   166.77   9   2   0.0000000e+00   2900  -9
   167.195   10   3   0.0000000e+00   3140  -10
   167.3   10   1   0.0000000e+00   3140  -10
   167.503   8   1   0.0000000e+00   3140  -8
   167.61   10   4   0.0000000e+00   2890  -10
   167.823   8   1   0.0000000e+00   3270  -8
   168.143   7   0.0000000e+00   0.0000000e+00   2930  -7
   168.463   8   0.0000000e+00   0.0000000e+00   3150  -8
   168.825   7   2   0.0000000e+00   3260  -7
   169.047   8   1   0.0000000e+00   2960  -8
   169.145   7   2   0.0000000e+00   3260  -7
   169.365   8   1   0.0000000e+00   3150  -8
   169.686   8   1   0.0000000e+00   3070  -8
   170.006   9   0.0000000e+00   0.0000000e+00   3070  -9
   170.326   9   1   0.0000000e+00   3070  -9
   170.646   7   2   0.0000000e+00   3150  -7
   170.966   9   3   0.0000000e+00   3230  -9
   171.286   4   9   0.0000000e+00   2840  -4
   171.606   8   7   4   4140  -8
   171.925   8   10   0.0000000e+00   2940  -8
   172.245   8   2   0.0000000e+00   3360  -8
   172.565   10   4   0.0000000e+00   3400  -10
   172.885   10   0.0000000e+00   0.0000000e+00   2910  -10
   174.995   7   2   0.0000000e+00   2980  -7
   175.315   7   6   5   5450  -7
   175.635   7   6   6   6120  -7
   175.955   7   6   5   5990  -7
   176.275   7   6   6   6720  -7
   176.907   2   7   5   5910  -2
   177.227   10   6   9   9420  -10
   177.547   1   8   6   6610  -1
   177.867   1   9   7   7840  -1
   178.179   0.0000000e+00   7   6   6050   0.0000000e+00
   178.499   0.0000000e+00   8   8   8300   0.0000000e+00
   178.819   1   8   7   7680  -1
   179.779   1   7   6   6380  -1
   180.099   3   8   7   7150  -3
   180.419   5   6   8   8060  -5
   180.739   5   6   7   7050  -5
   180.924   9   7   8   8300  -9
   181.244   6   8   4   4280  -6
   181.564   10   4   1   3310  -10
   181.884   7   5   0.0000000e+00   3100  -7
   182.364   7   5   0.0000000e+00   3260  -7
   182.684   8   6   0.0000000e+00   3160  -8
   182.984   10   2   8   8150  -10
   183.318   9   4   7   7950  -9
   183.638   8   5   1   3450  -8
   183.958   7   6   4   4680  -7
   184.258   7   7   3   3760  -7
   184.61   5   7   0.0000000e+00   2720  -5
   185.286   7   7   0.0000000e+00   2940  -7
   185.607   7   7   0.0000000e+00   2890  -7
   185.927   6   7   0.0000000e+00   2800  -6
   186.247   8   8   0.0000000e+00   3220  -8
   186.565   7   7   0.0000000e+00   2890  -7
   186.885   8   6   0.0000000e+00   2940  -8
   187.205   8   6   1   3170  -8
   187.525   8   7   0.0000000e+00   2840  -8
   187.693   8   4   0.0000000e+00   3130  -8
   188.013   7   6   0.0000000e+00   2840  -7
   188.313   5   5   0.0000000e+00   3140  -5
   188.653   5   5   0.0000000e+00   3410  -5
   188.973   8   5   0.0000000e+00   3070  -8
   189.293   7   6   0.0000000e+00   3070  -7
   189.301   9   7   0.0000000e+00   3070  -9
   189.616   8   7   0.0000000e+00   2870  -8
   189.936   10   7   0.0000000e+00   2780  -10
   190.256   7   7   0.0000000e+00   2830  -7
   190.626   7   7   0.0000000e+00   2910  -7
   190.897   8   8   0.0000000e+00   2740  -8
   191.21   8   6   0.0000000e+00   3180  -8
   191.534   8   5   0.0000000e+00   3140  -8
   191.854   8   5   0.0000000e+00   3220  -8
   192.174   6   6   0.0000000e+00   2950  -6
   192.492   7   7   0.0000000e+00   2960  -7
   192.812   8   8   0.0000000e+00   2830  -8
   193.132   8   6   0.0000000e+00   2870  -8
   193.455   9   5   0.0000000e+00   3180  -9
   193.775   8   4   0.0000000e+00   3180  -8
   194.41   7   6   0.0000000e+00   2910  -7
   194.658   8   7   0.0000000e+00   2960  -8
   195.556   8   7   0.0000000e+00   3120  -8
   195.876   8   9   0.0000000e+00   3030  -8
   196.196   6   5   0.0000000e+00   3380  -6
   197.176   7   6   0.0000000e+00   2780  -7
   197.495   2   6   0.0000000e+00   2520  -2
   197.811   7   5   8   8340  -7
   198.131   8   4   0.0000000e+00   3200  -8
   198.451   7   6   0.0000000e+00   3200  -7
   198.771   7   6   0.0000000e+00   3200  -7
   199.091   6   5   0.0000000e+00   3200  -6
   199.411   4   6   0.0000000e+00   3200  -4
   199.579   4   5   0.0000000e+00   3020  -4
   199.899   6   5   0.0000000e+00   3020  -6
   200.219   3   6   0.0000000e+00   3330  -3
   200.356   3   6   0.0000000e+00   3120  -3
   200.676   4   5   4   4020  -4
   200.996   3   4   3   3700  -3
   201.316   1   5   1   3380  -1
   201.636   2   4   1   3520  -2
   201.809   4   4   1   3280  -4
   202.109   1   5   0.0000000e+00   3100  -1
   202.429   4   4   0.0000000e+00   3560  -4
   202.749   8   5   0.0000000e+00   3190  -8
   203.069   8   5   0.0000000e+00   3380  -8
   203.389   7   6   0.0000000e+00   3470  -7
   203.526   7   7   0.0000000e+00   3040  -7
   203.705   8   7   0.0000000e+00   3370  -8
   204.295   8   7   0.0000000e+00   3370  -8
   204.645   9   7   0.0000000e+00   3370  -9
   204.925   7   6   0.0000000e+00   3170  -7
   205.204   7   6   0.0000000e+00   2800  -7
   205.524   7   7   0.0000000e+00   3170  -7
   205.842   5   6   0.0000000e+00   3380  -5
   205.844   5   5   0.0000000e+00   2800  -5
   206.164   7   6   0.0000000e+00   2980  -7
   206.189   7   5   0.0000000e+00   3320  -7
   206.433   7   6   0.0000000e+00   2980  -7
   206.462   7   4   0.0000000e+00   3310  -7
   206.622   8   4   0.0000000e+00   2860  -8
   206.782   8   4   0.0000000e+00   2960  -8
   206.984   8   5   0.0000000e+00   2960  -8
   207.229   8   4   0.0000000e+00   2910  -8
   207.304   9   7   0.0000000e+00   2860  -9
   207.535   8   4   0.0000000e+00   3010  -8
   207.624   9   6   0.0000000e+00   2860  -9
   207.872   9   4   0.0000000e+00   2960  -9
   207.949   8   5   0.0000000e+00   2870  -8
   208.149   9   7   0.0000000e+00   2960  -9
   208.269   9   4   0.0000000e+00   3290  -9
   208.589   8   3   0.0000000e+00   2960  -8
   208.604   9   3   0.0000000e+00   3060  -9
   208.909   8   2   0.0000000e+00   2960  -8
   209.227   9   2   0.0000000e+00   3060  -9
   209.547   9   1   0.0000000e+00   3060  -9
   210.057   9   1   0.0000000e+00   3310  -9
   210.287   9   2   0.0000000e+00   3380  -9
   210.442   10   8   0.0000000e+00   3210  -10
   210.597   7   4   0.0000000e+00   2960  -7
   210.762   9   2   0.0000000e+00   2930  -9
   210.92   8   3   0.0000000e+00   3010  -8
   212.128   8   2   0.0000000e+00   2960  -8
   212.448   9   6   0.0000000e+00   3320  -9
   212.768   7   5   0.0000000e+00   3270  -7
   213.088   7   5   0.0000000e+00   3010  -7
   213.408   8   6   0.0000000e+00   3010  -8
   213.658   9   5   0.0000000e+00   3000  -9
   213.728   9   6   0.0000000e+00   3010  -9
   213.968   9   8   0.0000000e+00   2870  -9
   214.048   7   5   0.0000000e+00   2900  -7
   214.368   8   5   0.0000000e+00   3110  -8
   214.583   9   9   1   3190  -9
   215.022   7   6   0.0000000e+00   3060  -7
   215.342   8   8   0.0000000e+00   3380  -8
   215.662   9   9   0.0000000e+00   3270  -9
   215.982   7   6   0.0000000e+00   3220  -7
   216.293   8   3   0.0000000e+00   3220  -8
   216.611   9   2   0.0000000e+00   3210  -9
   216.931   9   2   0.0000000e+00   3210  -9
   217.251   10   2   0.0000000e+00   3210  -10
   217.575   7   5   0.0000000e+00   3210  -7
   217.895   7   7   0.0000000e+00   3210  -7
   218.215   7   7   0.0000000e+00   3210  -7
   218.493   6   6   0.0000000e+00   2800  -6
   218.813   7   4   0.0000000e+00   2800  -7
   219.133   5   6   0.0000000e+00   2530  -5
   219.449   5   6   0.0000000e+00   2690  -5
   219.769   6   6   0.0000000e+00   2800  -6
   219.948   5   6   0.0000000e+00   2690  -5
   220.268   4   7   4   4540  -4
   220.588   5   6   6   6540  -5
   220.906   4   7   6   6010  -4
   221.266   3   7   5   5780  -3
   221.752   2   7   7   7050  -2
   222.092   1   7   7   7180  -1
   222.412   1   8   7   7250  -1
   222.727   2   8   7   7580  -2
   223.047   2   8   7   7510  -2
   223.374   3   8   8   8080  -3
   223.694   2   8   8   8430  -2
   224.014   3   9   7   7810  -3
   224.334   4   8   8   8250  -4
   224.474   3   9   6   6920  -3
   224.654   3   8   5   5980  -3
   224.787   4   8   7   7580  -4
   225.107   6   6   7   7910  -6
   225.427   6   7   7   7110  -6
   225.747   5   7   5   5990  -5
   226.067   6   7   7   7310  -6
   226.473   7   6   7   7050  -7
   226.793   6   7   8   8240  -6
   227.113   2   7   5   5340  -2
   227.777   0.0000000e+00   8   6   6460   0.0000000e+00
   228.097   0.0000000e+00   9   6   6160   0.0000000e+00
   228.417   0.0000000e+00   7   4   4940   0.0000000e+00
   228.698   0.0000000e+00   6   5   5730   0.0000000e+00
   228.762   4   7   1   2990  -4
   229.082   7   7   0.0000000e+00   2710  -7
   229.402   8   4   0.0000000e+00   2710  -8
   229.722   7   6   0.0000000e+00   2640  -7
   230.032   7   5   3   3290  -7
   230.352   6   10   0.0000000e+00   2750  -6
   230.672   6   9   0.0000000e+00   2750  -6
   230.77   6   8   0.0000000e+00   2910  -6
   230.98   6   7   0.0000000e+00   2700  -6
   230.992   6   9   0.0000000e+00   2620  -6
   231.312   6   6   1   3330  -6
   231.607   7   6   1   3070  -7
   232.012   6   9   1   2750  -6
   232.332   8   6   0.0000000e+00   2890  -8
   232.652   9   5   1   3020  -9
   232.967   10   6   0.0000000e+00   2890  -10
   233.287   8   5   1   3160  -8
   233.607   1   7   3   3490  -1
   234.236   5   8   4   4740  -5
   234.345   0.0000000e+00   0.0000000e+00   6   6650  -6
   234.795   1   7   4   4430  -1
   235.111   1   8   5   5360  -1
   235.431   1   8   5   5420  -1
   235.751   1   8   5   5910  -1
   236.071   1   8   5   5560  -1
   236.391   1   8   5   5420  -1
   236.706   1   9   7   7110  -1
   237.026   1   9   7   7490  -1
   237.346   2   9   7   7870  -2
   237.666   2   9   9   9530  -2
   237.986   3   8   9   9870  -3
   238.298   6   8   7   7790  -6
   238.618   7   8   8   7490  -7
   238.938   6   6   8   8420  -6
   239.258   7   8   7   7380  -7
   239.578   7   6   5   5020  -7
   239.901   7   7   7   7030  -7
   240.221   1   7   5   5020  -1
   240.541   1   7   4   4830  -1
   240.861   1   8   5   5010  -1
   241.181   1   8   5   5360  -1
   241.501   1   8   4   4890  -1
   241.821   1   7   6   6660  -1
   242.141   1   7   6   6660  -1
   242.462   5   5   6   6600  -5
   242.782   5   6   10   10290  -5
   242.939   7   3   9   9690  -7
   243.102   5   6   9   9580  -5
   243.422   5   6   11   11090  -5
   243.44   7   3   9   9870  -7
   243.578   7   3   7   7270  -7
   243.898   9   7   8   8140  -9
   244.218   10   3   9   9660  -10
   244.538   8   2   10   10190  -8
   244.858   10   3   9   9200  -10
   244.934   10   2   9   9000  -10
   245.257   5   2   3   3970  -5
   245.577   7   6   6   6230  -7
   245.897   9   1   3   3720  -9
   246.209   9   2   4   4220  -9
   246.529   8   3   4   4980  -8
   246.849   7   4   3   3840  -7
   247.174   8   3   1   3190  -8
   247.494   8   3   1   3190  -8
   247.814   8   1   1   3300  -8
   248.129   8   3   2   3460  -8
   248.374   8   7   4   4010  -8
   248.694   8   7   3   3750  -8
   249.004   5   6   1   3030  -5
   249.227   6   8   0.0000000e+00   3020  -6
   249.547   7   5   1   3160  -7
   249.978   7   5   0.0000000e+00   3040  -7
   250.298   8   6   0.0000000e+00   2980  -8
   250.618   8   6   0.0000000e+00   2920  -8
   250.938   7   7   0.0000000e+00   2920  -7
   251.258   7   8   0.0000000e+00   3040  -7
   251.429   7   9   0.0000000e+00   2830  -7
   251.749   7   8   0.0000000e+00   2830  -7
   252.069   2   2   0.0000000e+00   2360  -2
   252.426   4   4   0.0000000e+00   2610  -4
   252.746   5   6   0.0000000e+00   2860  -5
   253.066   5   6   0.0000000e+00   2860  -5
   253.356   5   5   0.0000000e+00   2860  -5
   253.708   6   6   0.0000000e+00   2860  -6
   254.028   7   3   0.0000000e+00   2920  -7
   254.361   7   5   0.0000000e+00   2980  -7
   254.818   8   6   0.0000000e+00   2950  -8
   255.89   8   8   0.0000000e+00   2950  -8
   256.208   9   6   0.0000000e+00   3030  -9
   256.248   8   4   0.0000000e+00   3040  -8
   256.508   9   2   0.0000000e+00   2910  -9
   256.533   8   6   0.0000000e+00   3080  -8
   256.703   5   6   0.0000000e+00   2610  -5
   256.853   8   4   0.0000000e+00   2610  -8
   257.484   7   6   0.0000000e+00   3010  -7
   257.804   8   4   0.0000000e+00   3010  -8
   259.392   8   6   0.0000000e+00   2980  -8
   259.494   6   7   0.0000000e+00   2790  -6
   259.712   8   7   0.0000000e+00   3090  -8
   259.814   7   8   0.0000000e+00   2790  -7
   260.032   8   8   0.0000000e+00   2900  -8
   260.352   8   7   0.0000000e+00   3040  -8
   260.672   8   7   0.0000000e+00   3040  -8
   261.21   7   8   0.0000000e+00   2900  -7
   261.531   7   9   0.0000000e+00   2680  -7
   261.847   6   10   0.0000000e+00   2830  -6
   262.16   5   9   0.0000000e+00   3000  -5
   262.94   1   6   1   2520  -1
   263.287   1   7   0.0000000e+00   2830  -1
   263.56   1   7   0.0000000e+00   2810  -1
   263.607   1   7   0.0000000e+00   2880  -1
   263.727   2   7   0.0000000e+00   2860  -2
   263.927   2   7   0.0000000e+00   2880  -2
   264.238   2   7   0.0000000e+00   2880  -2
   264.558   4   5   0.0000000e+00   3000  -4
   265.201   5   7   0.0000000e+00   2880  -5
   265.521   6   6   0.0000000e+00   2880  -6
   266.077   7   8   0.0000000e+00   2750  -7
   266.397   8   6   0.0000000e+00   2900  -8
   267.041   8   6   0.0000000e+00   3090  -8
   267.361   8   5   0.0000000e+00   3090  -8
   267.683   8   6   0.0000000e+00   3090  -8
   268.003   8   6   0.0000000e+00   3090  -8
   268.323   9   6   0.0000000e+00   3020  -9
   268.633   7   5   0.0000000e+00   3020  -7
   268.953   7   6   0.0000000e+00   2960  -7
   269.392   7   6   0.0000000e+00   3000  -7
   269.486   7   6   0.0000000e+00   3210  -7
   269.806   7   6   0.0000000e+00   3210  -7
   270.126   4   7   0.0000000e+00   3210  -4
   270.451   5   7   0.0000000e+00   2800  -5
   270.768   6   7   0.0000000e+00   2780  -6
   271.088   6   8   0.0000000e+00   2730  -6
   271.309   5   6   0.0000000e+00   2460  -5
   271.624   8   5   0.0000000e+00   2900  -8
   272.264   8   4   0.0000000e+00   3020  -8
   272.5   8   6   0.0000000e+00   3020  -8
   272.821   9   4   0.0000000e+00   3130  -9
   273.141   8   5   0.0000000e+00   2900  -8
   273.461   9   2   0.0000000e+00   3070  -9
   273.668   7   1   0.0000000e+00   2840  -7
   273.786   8   2   0.0000000e+00   2840  -8
   274.106   7   3   0.0000000e+00   2800  -7
   274.426   8   1   0.0000000e+00   2900  -8
   274.746   9   1   0.0000000e+00   2840  -9
   275.289   8   1   0.0000000e+00   3020  -8
   275.609   8   1   0.0000000e+00   3020  -8
   275.929   10   1   0.0000000e+00   3020  -10
   276.24   9   7   0.0000000e+00   2900  -9
   276.56   7   10   0.0000000e+00   2630  -7
   276.88   6   11   1   3590  -6
   277.2   5   6   1   3240  -5
   277.376   5   10   0.0000000e+00   2650  -5
   279.67   5   6   0.0000000e+00   3000  -5
   280.049   7   5   1   3040  -7
   280.369   7   5   1   3100  -7
   280.691   5   5   0.0000000e+00   3000  -5
   281.011   7   5   0.0000000e+00   2900  -7
   281.331   8   3   0.0000000e+00   2840  -8
   281.642   9   1   0.0000000e+00   2840  -9
   281.744   7   1   0.0000000e+00   2600  -7
   282.064   8   2   0.0000000e+00   3060  -8
   282.379   7   1   0.0000000e+00   3000  -7
   282.434   5   6   0.0000000e+00   2900  -5
   282.558   7   2   0.0000000e+00   3150  -7
   282.699   5   5   0.0000000e+00   2960  -5
   283.019   5   5   0.0000000e+00   2770  -5
   283.344   6   4   0.0000000e+00   2950  -6
   283.664   7   3   0.0000000e+00   3070  -7
   283.984   7   4   0.0000000e+00   3070  -7
   284.304   8   3   0.0000000e+00   3070  -8
   284.624   8   2   0.0000000e+00   3070  -8
   284.944   7   4   0.0000000e+00   3070  -7
   285.264   9   4   0.0000000e+00   3070  -9
   285.584   7   5   0.0000000e+00   3070  -7
   285.898   6   5   0.0000000e+00   3010  -6
   286.218   10   2   0.0000000e+00   2950  -10
   286.538   8   6   0.0000000e+00   2770  -8
   286.863   9   6   0.0000000e+00   2950  -9
   287.183   8   6   0.0000000e+00   3310  -8
   287.503   7   6   0.0000000e+00   3010  -7
   287.813   8   6   0.0000000e+00   2950  -8
   288.133   9   4   0.0000000e+00   3250  -9
   288.453   9   4   0.0000000e+00   3010  -9
   288.773   10   3   0.0000000e+00   3130  -10
   289.093   9   6   0.0000000e+00   3010  -9
   289.413   9   6   0.0000000e+00   3010  -9
   289.733   8   6   0.0000000e+00   3010  -8
   290.053   10   4   0.0000000e+00   3010  -10
   290.373   10   4   0.0000000e+00   3010  -10
   290.693   10   6   0.0000000e+00   3010  -10
   291.008   10   7   0.0000000e+00   3010  -10
   291.328   10   6   0.0000000e+00   3010  -10
   291.648   10   7   0.0000000e+00   3010  -10
   291.973   8   10   0.0000000e+00   3010  -8
   292.293   7   9   0.0000000e+00   3010  -7